Folder: Jack-G-21

Note: README.md
# Jack-G-21

This is a test.

File: JAG XRF Scan 1 Head.csv
Bruker AXS HMP Instrument Tools Complete CSV
FileName,C:\Users\skel2534\Desktop\Sydney Grammar\Jack Glass\JAG XRF Scan 1 Head.pdz
SerialString,
TubeTargetElement,45
NumberOfSpectra,1
SampleID,
AcquisitionDateTime,11/05/2021 11:31:55 AM
TotalElapsedTimeInSeconds,182
AnodeTakeOffAngle,53
SampleIncidenceAngle,45
BeThicknessInMicroMeters,75
SampleTakeOffAngle,65
SpotSizeUsed,-1
XrayVoltageInkV,40,
XrayFilamentCurrentInMicroAmps,3.2,
RawCounts,1589896,
ValidCounts,1203340,
eVPerChannel,20,
StartingKeV,0,
ZeroOffsetInKeV,0,
StartingChannel,0,
NumberOfChannels,2048,
CountsPerSecond,8783.956,
XilinxFirmwareVersion,808,
IlluminationID,,
Filter1ElementAtomicNum,22,
Filter1Thickness,25,
Filter2ElementAtomicNum,13,
Filter2Thickness,300,
Filter3ElementAtomicNum,0,
Filter3Thickness,0,
AcquisitionDateTime,11/05/2021 11:31:55 AM,
LiveTimeInSeconds,146.1689,
DeadTimeInSeconds,34.65,
ResetTimeInSeconds,0.8739995,
DetectorTempInC,-40.5,
AmbientTempInF,94.4,
NosePressureInMilliBars,,
NoseTemperatureInC,,
ActiveTimeInSeconds,181,
PacketTimeInSeconds,181.874,
CommunicationTimeInSeconds,0.1260071,
ElapsedClockTimeInSeconds,182,
Spectrum:ChannelNumber,ChannelStartInKeV,ChannelCount
1,0,16
8,0.14,9
15,0.28,2
22,0.42,1
29,0.56,26
36,0.7,55
43,0.84,47
50,0.98,48
57,1.12,61
64,1.26,55
71,1.4,60
78,1.54,50
85,1.68,31
92,1.82,43
99,1.96,39
106,2.1,40
113,2.24,52
120,2.38,94
127,2.52,85
134,2.66,75
141,2.8,37
148,2.94,43
155,3.08,34
162,3.22,38
169,3.36,33
176,3.5,31
183,3.64,29
190,3.78,30
197,3.92,20
204,4.06,15
211,4.2,11
218,4.34,21
225,4.48,21
232,4.62,22
239,4.76,26
246,4.9,28
253,5.04,45
260,5.18,42
267,5.32,29
274,5.46,25
281,5.6,31
288,5.74,31
295,5.88,24
302,6.02,24
309,6.16,91
316,6.3,295
323,6.44,302
330,6.58,99
337,6.72,46
344,6.86,64
351,7,105
358,7.14,86
365,7.28,83
372,7.42,109
379,7.56,155
386,7.7,307
393,7.84,6565
400,7.98,53422
407,8.12,49099
414,8.26,5748
421,8.4,365
428,8.54,257
435,8.68,1044
442,8.82,7551
449,8.96,9467
456,9.1,1682
463,9.24,220
470,9.38,58
477,9.52,21
484,9.66,26
491,9.8,26
498,9.94,27
505,10.08,22
512,10.22,99
519,10.36,910
526,10.5,3795
533,10.64,3016
540,10.78,441
547,10.92,106
554,11.06,782
561,11.2,2206
568,11.34,1156
575,11.48,165
582,11.62,38
589,11.76,62
596,11.9,57
603,12.04,82
610,12.18,230
617,12.32,452
624,12.46,1695
631,12.6,3971
638,12.74,2219
645,12.88,486
652,13.02,221
659,13.16,94
666,13.3,50
673,13.44,43
680,13.58,28
687,13.72,23
694,13.86,34
701,14,32
708,14.14,39
715,14.28,36
722,14.42,44
729,14.56,118
736,14.7,446
743,14.84,395
750,14.98,165
757,15.12,184
764,15.26,128
771,15.4,59
778,15.54,41
785,15.68,54
792,15.82,90
799,15.96,215
806,16.1,387
813,16.24,173
820,16.38,51
827,16.52,44
834,16.66,48
841,16.8,80
848,16.94,143
855,17.08,115
862,17.22,56
869,17.36,38
876,17.5,42
883,17.64,48
890,17.78,50
897,17.92,64
904,18.06,57
911,18.2,48
918,18.34,47
925,18.48,87
932,18.62,122
939,18.76,112
946,18.9,105
953,19.04,123
960,19.18,137
967,19.32,98
974,19.46,105
981,19.6,94
988,19.74,81
995,19.88,119
1002,20.02,214
1009,20.16,296
1016,20.3,198
1023,20.44,81
1030,20.58,70
1037,20.72,78
1044,20.86,66
1051,21,62
1058,21.14,47
1065,21.28,48
1072,21.42,51
1079,21.56,66
1086,21.7,76
1093,21.84,123
1100,21.98,239
1107,22.12,307
1114,22.26,205
1121,22.4,87
1128,22.54,76
1135,22.68,80
1142,22.82,76
1149,22.96,70
1156,23.1,51
1163,23.24,36
1170,23.38,43
1177,23.52,46
1184,23.66,45
1191,23.8,43
1198,23.94,37
1205,24.08,54
1212,24.22,36
1219,24.36,38
1226,24.5,46
1233,24.64,48
1240,24.78,68
1247,24.92,136
1254,25.06,177
1261,25.2,252
1268,25.34,183
1275,25.48,76
1282,25.62,37
1289,25.76,20
1296,25.9,32
1303,26.04,40
1310,26.18,37
1317,26.32,52
1324,26.46,47
1331,26.6,32
1338,26.74,48
1345,26.88,29
1352,27.02,39
1359,27.16,32
1366,27.3,24
1373,27.44,22
1380,27.58,35
1387,27.72,49
1394,27.86,36
1401,28,45
1408,28.14,43
1415,28.28,33
1422,28.42,68
1429,28.56,60
1436,28.7,41
1443,28.84,35
1450,28.98,35
1457,29.12,40
1464,29.26,31
1471,29.4,28
1478,29.54,34
1485,29.68,29
1492,29.82,27
1499,29.96,30
1506,30.1,35
1513,30.24,28
1520,30.38,30
1527,30.52,28
1534,30.66,30
1541,30.8,39
1548,30.94,38
1555,31.08,24
1562,31.22,20
1569,31.36,27
1576,31.5,21
1583,31.64,22
1590,31.78,17
1597,31.92,28
1604,32.06,30
1611,32.2,29
1618,32.34,20
1625,32.48,20
1632,32.62,11
1639,32.76,33
1646,32.9,21
1653,33.04,25
1660,33.18,19
1667,33.32,21
1674,33.46,24
1681,33.6,20
1688,33.74,11
1695,33.88,20
1702,34.02,23
1709,34.16,15
1716,34.3,11
1723,34.44,6
1730,34.58,29
1737,34.72,12
1744,34.86,13
1751,35,9
1758,35.14,12
1765,35.28,12
1772,35.42,10
1779,35.56,14
1786,35.7,11
1793,35.84,12
1800,35.98,13
1807,36.12,5
1814,36.26,12
1821,36.4,6
1828,36.54,7
1835,36.68,12
1842,36.82,10
1849,36.96,6
1856,37.1,8
1863,37.24,6
1870,37.38,8
1877,37.52,2
1884,37.66,8
1891,37.8,2
1898,37.94,4
1905,38.08,3
1912,38.22,4
1919,38.36,3
1926,38.5,5
1933,38.64,0
1940,38.78,4
1947,38.92,1
1954,39.06,1
1961,39.2,1
1968,39.34,0
1975,39.48,0
1982,39.62,1
1989,39.76,1
1996,39.9,0
2003,40.04,1
2010,40.18,1
2017,40.32,0
2024,40.46,0
2031,40.6,0
2038,40.74,0
2045,40.88,0
2048,40.94,0

File: JAG XRF Scan 1 Tails.csv
Bruker AXS HMP Instrument Tools Complete CSV
FileName,C:\Users\skel2534\Desktop\Sydney Grammar\Jack Glass\JAG XRF Scan 1 Tails.pdz
SerialString,
TubeTargetElement,45
NumberOfSpectra,1
SampleID,
AcquisitionDateTime,11/05/2021 11:48:59 AM
TotalElapsedTimeInSeconds,32
AnodeTakeOffAngle,53
SampleIncidenceAngle,45
BeThicknessInMicroMeters,75
SampleTakeOffAngle,65
SpotSizeUsed,-1
XrayVoltageInkV,40,
XrayFilamentCurrentInMicroAmps,3.2,
RawCounts,274401,
ValidCounts,206930,
eVPerChannel,20,
StartingKeV,0,
ZeroOffsetInKeV,0,
StartingChannel,0,
NumberOfChannels,2048,
CountsPerSecond,8851.646,
XilinxFirmwareVersion,808,
IlluminationID,,
Filter1ElementAtomicNum,22,
Filter1Thickness,25,
Filter2ElementAtomicNum,13,
Filter2Thickness,300,
Filter3ElementAtomicNum,0,
Filter3Thickness,0,
AcquisitionDateTime,11/05/2021 11:48:59 AM,
LiveTimeInSeconds,24.996,
DeadTimeInSeconds,5.973001,
ResetTimeInSeconds,0.145,
DetectorTempInC,-40.5,
AmbientTempInF,94.4,
NosePressureInMilliBars,,
NoseTemperatureInC,,
ActiveTimeInSeconds,31,
PacketTimeInSeconds,31.145,
CommunicationTimeInSeconds,0.8549995,
ElapsedClockTimeInSeconds,32,
Spectrum:ChannelNumber,ChannelStartInKeV,ChannelCount
1,0,4
8,0.14,2
15,0.28,0
22,0.42,0
29,0.56,3
36,0.7,6
43,0.84,10
50,0.98,6
57,1.12,8
64,1.26,5
71,1.4,11
78,1.54,10
85,1.68,5
92,1.82,6
99,1.96,7
106,2.1,6
113,2.24,8
120,2.38,6
127,2.52,14
134,2.66,15
141,2.8,5
148,2.94,6
155,3.08,5
162,3.22,5
169,3.36,7
176,3.5,7
183,3.64,5
190,3.78,5
197,3.92,4
204,4.06,2
211,4.2,1
218,4.34,2
225,4.48,1
232,4.62,1
239,4.76,1
246,4.9,6
253,5.04,9
260,5.18,7
267,5.32,6
274,5.46,10
281,5.6,6
288,5.74,2
295,5.88,3
302,6.02,3
309,6.16,17
316,6.3,69
323,6.44,49
330,6.58,16
337,6.72,6
344,6.86,12
351,7,23
358,7.14,14
365,7.28,9
372,7.42,18
379,7.56,35
386,7.7,58
393,7.84,1295
400,7.98,10141
407,8.12,9439
414,8.26,1063
421,8.4,68
428,8.54,44
435,8.68,214
442,8.82,1462
449,8.96,1739
456,9.1,346
463,9.24,20
470,9.38,6
477,9.52,2
484,9.66,8
491,9.8,3
498,9.94,2
505,10.08,1
512,10.22,5
519,10.36,60
526,10.5,268
533,10.64,180
540,10.78,31
547,10.92,13
554,11.06,105
561,11.2,284
568,11.34,120
575,11.48,13
582,11.62,6
589,11.76,13
596,11.9,10
603,12.04,10
610,12.18,18
617,12.32,44
624,12.46,109
631,12.6,209
638,12.74,153
645,12.88,41
652,13.02,15
659,13.16,9
666,13.3,10
673,13.44,4
680,13.58,4
687,13.72,3
694,13.86,1
701,14,4
708,14.14,13
715,14.28,13
722,14.42,8
729,14.56,10
736,14.7,30
743,14.84,37
750,14.98,7
757,15.12,22
764,15.26,17
771,15.4,8
778,15.54,6
785,15.68,18
792,15.82,13
799,15.96,48
806,16.1,76
813,16.24,34
820,16.38,17
827,16.52,7
834,16.66,8
841,16.8,14
848,16.94,35
855,17.08,16
862,17.22,8
869,17.36,10
876,17.5,6
883,17.64,10
890,17.78,7
897,17.92,14
904,18.06,4
911,18.2,7
918,18.34,8
925,18.48,11
932,18.62,14
939,18.76,16
946,18.9,18
953,19.04,11
960,19.18,14
967,19.32,20
974,19.46,12
981,19.6,17
988,19.74,12
995,19.88,21
1002,20.02,34
1009,20.16,32
1016,20.3,35
1023,20.44,17
1030,20.58,13
1037,20.72,17
1044,20.86,11
1051,21,7
1058,21.14,11
1065,21.28,9
1072,21.42,10
1079,21.56,8
1086,21.7,9
1093,21.84,23
1100,21.98,41
1107,22.12,48
1114,22.26,33
1121,22.4,13
1128,22.54,10
1135,22.68,12
1142,22.82,16
1149,22.96,8
1156,23.1,7
1163,23.24,9
1170,23.38,9
1177,23.52,10
1184,23.66,7
1191,23.8,7
1198,23.94,7
1205,24.08,6
1212,24.22,8
1219,24.36,5
1226,24.5,7
1233,24.64,5
1240,24.78,8
1247,24.92,24
1254,25.06,22
1261,25.2,39
1268,25.34,29
1275,25.48,17
1282,25.62,11
1289,25.76,6
1296,25.9,10
1303,26.04,13
1310,26.18,7
1317,26.32,3
1324,26.46,8
1331,26.6,6
1338,26.74,7
1345,26.88,4
1352,27.02,5
1359,27.16,4
1366,27.3,6
1373,27.44,7
1380,27.58,5
1387,27.72,12
1394,27.86,4
1401,28,1
1408,28.14,7
1415,28.28,8
1422,28.42,11
1429,28.56,12
1436,28.7,15
1443,28.84,6
1450,28.98,4
1457,29.12,4
1464,29.26,6
1471,29.4,7
1478,29.54,3
1485,29.68,10
1492,29.82,1
1499,29.96,3
1506,30.1,6
1513,30.24,5
1520,30.38,6
1527,30.52,2
1534,30.66,3
1541,30.8,4
1548,30.94,2
1555,31.08,5
1562,31.22,5
1569,31.36,3
1576,31.5,5
1583,31.64,6
1590,31.78,5
1597,31.92,6
1604,32.06,3
1611,32.2,1
1618,32.34,1
1625,32.48,8
1632,32.62,2
1639,32.76,2
1646,32.9,2
1653,33.04,5
1660,33.18,4
1667,33.32,2
1674,33.46,3
1681,33.6,6
1688,33.74,2
1695,33.88,2
1702,34.02,1
1709,34.16,2
1716,34.3,5
1723,34.44,1
1730,34.58,3
1737,34.72,2
1744,34.86,2
1751,35,2
1758,35.14,3
1765,35.28,3
1772,35.42,2
1779,35.56,0
1786,35.7,0
1793,35.84,1
1800,35.98,1
1807,36.12,4
1814,36.26,0
1821,36.4,3
1828,36.54,1
1835,36.68,0
1842,36.82,0
1849,36.96,2
1856,37.1,2
1863,37.24,2
1870,37.38,1
1877,37.52,1
1884,37.66,1
1891,37.8,2
1898,37.94,1
1905,38.08,1
1912,38.22,0
1919,38.36,0
1926,38.5,1
1933,38.64,0
1940,38.78,0
1947,38.92,1
1954,39.06,0
1961,39.2,1
1968,39.34,0
1975,39.48,0
1982,39.62,0
1989,39.76,0
1996,39.9,0
2003,40.04,0
2010,40.18,0
2017,40.32,0
2024,40.46,0
2031,40.6,0
2038,40.74,0
2045,40.88,0
2048,40.94,0

File: JAG XRF Scan 2 Tails.csv
Bruker AXS HMP Instrument Tools Complete CSV
FileName,C:\Users\skel2534\Desktop\Sydney Grammar\Jack Glass\JAG XRF Scan 2 Tails.pdz
SerialString,
TubeTargetElement,45
NumberOfSpectra,1
SampleID,
AcquisitionDateTime,11/05/2021 11:50:25 AM
TotalElapsedTimeInSeconds,32
AnodeTakeOffAngle,53
SampleIncidenceAngle,45
BeThicknessInMicroMeters,75
SampleTakeOffAngle,65
SpotSizeUsed,-1
XrayVoltageInkV,40,
XrayFilamentCurrentInMicroAmps,3.2,
RawCounts,272715,
ValidCounts,206250,
eVPerChannel,20,
StartingKeV,0,
ZeroOffsetInKeV,0,
StartingChannel,0,
NumberOfChannels,2048,
CountsPerSecond,8797.258,
XilinxFirmwareVersion,808,
IlluminationID,,
Filter1ElementAtomicNum,22,
Filter1Thickness,25,
Filter2ElementAtomicNum,13,
Filter2Thickness,300,
Filter3ElementAtomicNum,0,
Filter3Thickness,0,
AcquisitionDateTime,11/05/2021 11:50:25 AM,
LiveTimeInSeconds,25.026,
DeadTimeInSeconds,5.943001,
ResetTimeInSeconds,0.136,
DetectorTempInC,-40.5,
AmbientTempInF,94.4,
NosePressureInMilliBars,,
NoseTemperatureInC,,
ActiveTimeInSeconds,31,
PacketTimeInSeconds,31.136,
CommunicationTimeInSeconds,0.8640003,
ElapsedClockTimeInSeconds,32,
Spectrum:ChannelNumber,ChannelStartInKeV,ChannelCount
1,0,8
8,0.14,1
15,0.28,0
22,0.42,0
29,0.56,1
36,0.7,5
43,0.84,10
50,0.98,4
57,1.12,9
64,1.26,8
71,1.4,16
78,1.54,10
85,1.68,5
92,1.82,5
99,1.96,4
106,2.1,8
113,2.24,6
120,2.38,16
127,2.52,18
134,2.66,23
141,2.8,5
148,2.94,7
155,3.08,4
162,3.22,3
169,3.36,6
176,3.5,4
183,3.64,2
190,3.78,7
197,3.92,4
204,4.06,2
211,4.2,6
218,4.34,3
225,4.48,3
232,4.62,1
239,4.76,2
246,4.9,9
253,5.04,9
260,5.18,6
267,5.32,6
274,5.46,3
281,5.6,8
288,5.74,4
295,5.88,3
302,6.02,3
309,6.16,17
316,6.3,39
323,6.44,23
330,6.58,7
337,6.72,9
344,6.86,11
351,7,15
358,7.14,7
365,7.28,4
372,7.42,21
379,7.56,33
386,7.7,67
393,7.84,1322
400,7.98,10186
407,8.12,8949
414,8.26,983
421,8.4,51
428,8.54,41
435,8.68,224
442,8.82,1391
449,8.96,1763
456,9.1,292
463,9.24,36
470,9.38,6
477,9.52,2
484,9.66,2
491,9.8,0
498,9.94,2
505,10.08,1
512,10.22,11
519,10.36,86
526,10.5,288
533,10.64,210
540,10.78,31
547,10.92,8
554,11.06,92
561,11.2,272
568,11.34,97
575,11.48,22
582,11.62,4
589,11.76,6
596,11.9,6
603,12.04,9
610,12.18,17
617,12.32,40
624,12.46,125
631,12.6,284
638,12.74,160
645,12.88,31
652,13.02,12
659,13.16,12
666,13.3,8
673,13.44,4
680,13.58,5
687,13.72,2
694,13.86,0
701,14,8
708,14.14,3
715,14.28,6
722,14.42,4
729,14.56,11
736,14.7,30
743,14.84,28
750,14.98,26
757,15.12,17
764,15.26,16
771,15.4,9
778,15.54,11
785,15.68,10
792,15.82,11
799,15.96,45
806,16.1,83
813,16.24,41
820,16.38,11
827,16.52,11
834,16.66,4
841,16.8,23
848,16.94,22
855,17.08,18
862,17.22,6
869,17.36,10
876,17.5,3
883,17.64,10
890,17.78,7
897,17.92,10
904,18.06,8
911,18.2,9
918,18.34,10
925,18.48,15
932,18.62,21
939,18.76,12
946,18.9,18
953,19.04,21
960,19.18,17
967,19.32,19
974,19.46,18
981,19.6,7
988,19.74,15
995,19.88,20
1002,20.02,42
1009,20.16,57
1016,20.3,36
1023,20.44,9
1030,20.58,15
1037,20.72,11
1044,20.86,11
1051,21,4
1058,21.14,14
1065,21.28,13
1072,21.42,5
1079,21.56,11
1086,21.7,8
1093,21.84,15
1100,21.98,29
1107,22.12,45
1114,22.26,40
1121,22.4,15
1128,22.54,13
1135,22.68,12
1142,22.82,9
1149,22.96,9
1156,23.1,10
1163,23.24,5
1170,23.38,6
1177,23.52,3
1184,23.66,5
1191,23.8,8
1198,23.94,5
1205,24.08,6
1212,24.22,3
1219,24.36,6
1226,24.5,5
1233,24.64,7
1240,24.78,15
1247,24.92,31
1254,25.06,29
1261,25.2,33
1268,25.34,27
1275,25.48,19
1282,25.62,9
1289,25.76,3
1296,25.9,7
1303,26.04,8
1310,26.18,6
1317,26.32,7
1324,26.46,10
1331,26.6,7
1338,26.74,5
1345,26.88,5
1352,27.02,8
1359,27.16,9
1366,27.3,4
1373,27.44,6
1380,27.58,4
1387,27.72,2
1394,27.86,2
1401,28,3
1408,28.14,9
1415,28.28,8
1422,28.42,4
1429,28.56,4
1436,28.7,9
1443,28.84,5
1450,28.98,3
1457,29.12,9
1464,29.26,4
1471,29.4,10
1478,29.54,3
1485,29.68,4
1492,29.82,2
1499,29.96,3
1506,30.1,3
1513,30.24,6
1520,30.38,3
1527,30.52,1
1534,30.66,2
1541,30.8,2
1548,30.94,3
1555,31.08,2
1562,31.22,2
1569,31.36,6
1576,31.5,7
1583,31.64,5
1590,31.78,2
1597,31.92,2
1604,32.06,6
1611,32.2,6
1618,32.34,4
1625,32.48,5
1632,32.62,5
1639,32.76,3
1646,32.9,4
1653,33.04,4
1660,33.18,4
1667,33.32,6
1674,33.46,5
1681,33.6,5
1688,33.74,5
1695,33.88,2
1702,34.02,4
1709,34.16,0
1716,34.3,1
1723,34.44,5
1730,34.58,2
1737,34.72,1
1744,34.86,1
1751,35,0
1758,35.14,0
1765,35.28,2
1772,35.42,3
1779,35.56,3
1786,35.7,1
1793,35.84,3
1800,35.98,0
1807,36.12,1
1814,36.26,2
1821,36.4,1
1828,36.54,0
1835,36.68,1
1842,36.82,0
1849,36.96,1
1856,37.1,0
1863,37.24,3
1870,37.38,1
1877,37.52,0
1884,37.66,1
1891,37.8,0
1898,37.94,0
1905,38.08,1
1912,38.22,4
1919,38.36,1
1926,38.5,0
1933,38.64,2
1940,38.78,0
1947,38.92,1
1954,39.06,0
1961,39.2,0
1968,39.34,0
1975,39.48,0
1982,39.62,0
1989,39.76,0
1996,39.9,0
2003,40.04,0
2010,40.18,0
2017,40.32,0
2024,40.46,0
2031,40.6,0
2038,40.74,0
2045,40.88,0
2048,40.94,2

File: JAG XRF Scan 3 Heads.csv
Bruker AXS HMP Instrument Tools Complete CSV
FileName,C:\Users\skel2534\Desktop\Sydney Grammar\Jack Glass\JAG XRF Scan 3 Heads.pdz
SerialString,
TubeTargetElement,45
NumberOfSpectra,1
SampleID,
AcquisitionDateTime,11/05/2021 11:53:55 AM
TotalElapsedTimeInSeconds,32
AnodeTakeOffAngle,53
SampleIncidenceAngle,45
BeThicknessInMicroMeters,75
SampleTakeOffAngle,65
SpotSizeUsed,-1
XrayVoltageInkV,40,
XrayFilamentCurrentInMicroAmps,3.2,
RawCounts,273549,
ValidCounts,207299,
eVPerChannel,20,
StartingKeV,0,
ZeroOffsetInKeV,0,
StartingChannel,0,
NumberOfChannels,2048,
CountsPerSecond,8824.161,
XilinxFirmwareVersion,808,
IlluminationID,,
Filter1ElementAtomicNum,22,
Filter1Thickness,25,
Filter2ElementAtomicNum,13,
Filter2Thickness,300,
Filter3ElementAtomicNum,0,
Filter3Thickness,0,
AcquisitionDateTime,11/05/2021 11:53:55 AM,
LiveTimeInSeconds,25.005,
DeadTimeInSeconds,5.964,
ResetTimeInSeconds,0.144,
DetectorTempInC,-40.5,
AmbientTempInF,94.4,
NosePressureInMilliBars,,
NoseTemperatureInC,,
ActiveTimeInSeconds,31,
PacketTimeInSeconds,31.144,
CommunicationTimeInSeconds,0.8560009,
ElapsedClockTimeInSeconds,32,
Spectrum:ChannelNumber,ChannelStartInKeV,ChannelCount
1,0,1
8,0.14,0
15,0.28,0
22,0.42,1
29,0.56,3
36,0.7,11
43,0.84,5
50,0.98,8
57,1.12,5
64,1.26,14
71,1.4,7
78,1.54,14
85,1.68,13
92,1.82,12
99,1.96,5
106,2.1,6
113,2.24,4
120,2.38,14
127,2.52,13
134,2.66,11
141,2.8,8
148,2.94,8
155,3.08,3
162,3.22,3
169,3.36,4
176,3.5,10
183,3.64,13
190,3.78,7
197,3.92,3
204,4.06,4
211,4.2,6
218,4.34,5
225,4.48,4
232,4.62,2
239,4.76,3
246,4.9,2
253,5.04,10
260,5.18,7
267,5.32,1
274,5.46,5
281,5.6,2
288,5.74,7
295,5.88,5
302,6.02,5
309,6.16,11
316,6.3,50
323,6.44,26
330,6.58,11
337,6.72,8
344,6.86,10
351,7,17
358,7.14,9
365,7.28,14
372,7.42,28
379,7.56,33
386,7.7,57
393,7.84,1282
400,7.98,10098
407,8.12,9194
414,8.26,1090
421,8.4,62
428,8.54,50
435,8.68,189
442,8.82,1436
449,8.96,1829
456,9.1,324
463,9.24,14
470,9.38,3
477,9.52,2
484,9.66,2
491,9.8,1
498,9.94,3
505,10.08,2
512,10.22,2
519,10.36,69
526,10.5,242
533,10.64,190
540,10.78,25
547,10.92,9
554,11.06,86
561,11.2,207
568,11.34,102
575,11.48,17
582,11.62,12
589,11.76,9
596,11.9,9
603,12.04,9
610,12.18,16
617,12.32,35
624,12.46,100
631,12.6,249
638,12.74,117
645,12.88,25
652,13.02,22
659,13.16,9
666,13.3,8
673,13.44,5
680,13.58,6
687,13.72,2
694,13.86,5
701,14,4
708,14.14,8
715,14.28,5
722,14.42,5
729,14.56,14
736,14.7,31
743,14.84,34
750,14.98,20
757,15.12,12
764,15.26,15
771,15.4,7
778,15.54,8
785,15.68,6
792,15.82,10
799,15.96,53
806,16.1,89
813,16.24,36
820,16.38,6
827,16.52,3
834,16.66,8
841,16.8,22
848,16.94,36
855,17.08,19
862,17.22,11
869,17.36,8
876,17.5,9
883,17.64,8
890,17.78,6
897,17.92,11
904,18.06,11
911,18.2,11
918,18.34,11
925,18.48,17
932,18.62,13
939,18.76,18
946,18.9,23
953,19.04,24
960,19.18,18
967,19.32,27
974,19.46,12
981,19.6,16
988,19.74,11
995,19.88,21
1002,20.02,35
1009,20.16,47
1016,20.3,41
1023,20.44,19
1030,20.58,8
1037,20.72,12
1044,20.86,8
1051,21,9
1058,21.14,9
1065,21.28,13
1072,21.42,8
1079,21.56,9
1086,21.7,8
1093,21.84,21
1100,21.98,55
1107,22.12,54
1114,22.26,37
1121,22.4,17
1128,22.54,9
1135,22.68,18
1142,22.82,22
1149,22.96,11
1156,23.1,5
1163,23.24,8
1170,23.38,6
1177,23.52,5
1184,23.66,11
1191,23.8,10
1198,23.94,10
1205,24.08,6
1212,24.22,8
1219,24.36,5
1226,24.5,2
1233,24.64,18
1240,24.78,25
1247,24.92,38
1254,25.06,43
1261,25.2,50
1268,25.34,50
1275,25.48,21
1282,25.62,7
1289,25.76,6
1296,25.9,3
1303,26.04,12
1310,26.18,7
1317,26.32,14
1324,26.46,4
1331,26.6,4
1338,26.74,9
1345,26.88,6
1352,27.02,7
1359,27.16,6
1366,27.3,7
1373,27.44,3
1380,27.58,6
1387,27.72,6
1394,27.86,2
1401,28,6
1408,28.14,6
1415,28.28,12
1422,28.42,15
1429,28.56,18
1436,28.7,10
1443,28.84,6
1450,28.98,7
1457,29.12,10
1464,29.26,3
1471,29.4,3
1478,29.54,6
1485,29.68,8
1492,29.82,10
1499,29.96,2
1506,30.1,8
1513,30.24,3
1520,30.38,3
1527,30.52,4
1534,30.66,3
1541,30.8,4
1548,30.94,3
1555,31.08,5
1562,31.22,3
1569,31.36,2
1576,31.5,5
1583,31.64,4
1590,31.78,6
1597,31.92,3
1604,32.06,6
1611,32.2,1
1618,32.34,3
1625,32.48,5
1632,32.62,2
1639,32.76,4
1646,32.9,6
1653,33.04,5
1660,33.18,3
1667,33.32,4
1674,33.46,2
1681,33.6,6
1688,33.74,4
1695,33.88,5
1702,34.02,6
1709,34.16,8
1716,34.3,5
1723,34.44,2
1730,34.58,7
1737,34.72,1
1744,34.86,2
1751,35,2
1758,35.14,1
1765,35.28,0
1772,35.42,1
1779,35.56,0
1786,35.7,2
1793,35.84,2
1800,35.98,1
1807,36.12,2
1814,36.26,0
1821,36.4,1
1828,36.54,2
1835,36.68,1
1842,36.82,1
1849,36.96,0
1856,37.1,1
1863,37.24,1
1870,37.38,1
1877,37.52,0
1884,37.66,2
1891,37.8,0
1898,37.94,0
1905,38.08,1
1912,38.22,0
1919,38.36,0
1926,38.5,0
1933,38.64,0
1940,38.78,1
1947,38.92,0
1954,39.06,0
1961,39.2,1
1968,39.34,0
1975,39.48,0
1982,39.62,0
1989,39.76,0
1996,39.9,0
2003,40.04,1
2010,40.18,0
2017,40.32,0
2024,40.46,0
2031,40.6,0
2038,40.74,0
2045,40.88,0
2048,40.94,1

File: JAG XRF Scan 3 Tails.csv
Bruker AXS HMP Instrument Tools Complete CSV
FileName,C:\Users\skel2534\Desktop\Sydney Grammar\Jack Glass\JAG XRF Scan 3 Tails.pdz
SerialString,
TubeTargetElement,45
NumberOfSpectra,1
SampleID,
AcquisitionDateTime,11/05/2021 11:52:53 AM
TotalElapsedTimeInSeconds,31
AnodeTakeOffAngle,53
SampleIncidenceAngle,45
BeThicknessInMicroMeters,75
SampleTakeOffAngle,65
SpotSizeUsed,-1
XrayVoltageInkV,40,
XrayFilamentCurrentInMicroAmps,3.2,
RawCounts,245761,
ValidCounts,189243,
eVPerChannel,20,
StartingKeV,0,
ZeroOffsetInKeV,0,
StartingChannel,0,
NumberOfChannels,2048,
CountsPerSecond,8192.033,
XilinxFirmwareVersion,808,
IlluminationID,,
Filter1ElementAtomicNum,22,
Filter1Thickness,25,
Filter2ElementAtomicNum,13,
Filter2Thickness,300,
Filter3ElementAtomicNum,0,
Filter3Thickness,0,
AcquisitionDateTime,11/05/2021 11:52:53 AM,
LiveTimeInSeconds,24.583,
DeadTimeInSeconds,5.386999,
ResetTimeInSeconds,0.12,
DetectorTempInC,-40.5,
AmbientTempInF,94.4,
NosePressureInMilliBars,,
NoseTemperatureInC,,
ActiveTimeInSeconds,30,
PacketTimeInSeconds,30.12,
CommunicationTimeInSeconds,0.8799992,
ElapsedClockTimeInSeconds,31,
Spectrum:ChannelNumber,ChannelStartInKeV,ChannelCount
1,0,6
8,0.14,2
15,0.28,0
22,0.42,1
29,0.56,2
36,0.7,5
43,0.84,10
50,0.98,12
57,1.12,7
64,1.26,16
71,1.4,15
78,1.54,4
85,1.68,9
92,1.82,7
99,1.96,13
106,2.1,6
113,2.24,12
120,2.38,13
127,2.52,9
134,2.66,12
141,2.8,1
148,2.94,8
155,3.08,3
162,3.22,6
169,3.36,4
176,3.5,6
183,3.64,11
190,3.78,9
197,3.92,5
204,4.06,4
211,4.2,6
218,4.34,2
225,4.48,3
232,4.62,3
239,4.76,3
246,4.9,7
253,5.04,3
260,5.18,4
267,5.32,4
274,5.46,7
281,5.6,7
288,5.74,5
295,5.88,7
302,6.02,2
309,6.16,8
316,6.3,40
323,6.44,21
330,6.58,15
337,6.72,7
344,6.86,10
351,7,10
358,7.14,9
365,7.28,9
372,7.42,17
379,7.56,27
386,7.7,63
393,7.84,1119
400,7.98,8840
407,8.12,8254
414,8.26,932
421,8.4,57
428,8.54,48
435,8.68,183
442,8.82,1302
449,8.96,1663
456,9.1,269
463,9.24,34
470,9.38,8
477,9.52,5
484,9.66,6
491,9.8,0
498,9.94,5
505,10.08,2
512,10.22,8
519,10.36,82
526,10.5,309
533,10.64,264
540,10.78,39
547,10.92,11
554,11.06,105
561,11.2,258
568,11.34,140
575,11.48,19
582,11.62,6
589,11.76,9
596,11.9,4
603,12.04,10
610,12.18,12
617,12.32,44
624,12.46,136
631,12.6,308
638,12.74,179
645,12.88,31
652,13.02,23
659,13.16,8
666,13.3,5
673,13.44,7
680,13.58,6
687,13.72,8
694,13.86,4
701,14,3
708,14.14,8
715,14.28,8
722,14.42,6
729,14.56,6
736,14.7,33
743,14.84,43
750,14.98,9
757,15.12,21
764,15.26,16
771,15.4,5
778,15.54,7
785,15.68,12
792,15.82,12
799,15.96,39
806,16.1,63
813,16.24,34
820,16.38,8
827,16.52,14
834,16.66,9
841,16.8,15
848,16.94,32
855,17.08,22
862,17.22,10
869,17.36,7
876,17.5,4
883,17.64,11
890,17.78,6
897,17.92,9
904,18.06,8
911,18.2,11
918,18.34,9
925,18.48,13
932,18.62,10
939,18.76,12
946,18.9,22
953,19.04,21
960,19.18,18
967,19.32,17
974,19.46,17
981,19.6,10
988,19.74,15
995,19.88,23
1002,20.02,28
1009,20.16,56
1016,20.3,35
1023,20.44,9
1030,20.58,15
1037,20.72,5
1044,20.86,13
1051,21,6
1058,21.14,5
1065,21.28,9
1072,21.42,9
1079,21.56,6
1086,21.7,13
1093,21.84,10
1100,21.98,42
1107,22.12,47
1114,22.26,38
1121,22.4,19
1128,22.54,16
1135,22.68,9
1142,22.82,13
1149,22.96,8
1156,23.1,10
1163,23.24,3
1170,23.38,8
1177,23.52,5
1184,23.66,8
1191,23.8,7
1198,23.94,3
1205,24.08,5
1212,24.22,9
1219,24.36,3
1226,24.5,7
1233,24.64,10
1240,24.78,18
1247,24.92,31
1254,25.06,55
1261,25.2,53
1268,25.34,27
1275,25.48,16
1282,25.62,8
1289,25.76,3
1296,25.9,9
1303,26.04,11
1310,26.18,7
1317,26.32,11
1324,26.46,5
1331,26.6,9
1338,26.74,7
1345,26.88,6
1352,27.02,4
1359,27.16,10
1366,27.3,6
1373,27.44,7
1380,27.58,7
1387,27.72,6
1394,27.86,6
1401,28,5
1408,28.14,6
1415,28.28,6
1422,28.42,10
1429,28.56,9
1436,28.7,9
1443,28.84,5
1450,28.98,6
1457,29.12,5
1464,29.26,8
1471,29.4,4
1478,29.54,3
1485,29.68,10
1492,29.82,6
1499,29.96,4
1506,30.1,8
1513,30.24,8
1520,30.38,4
1527,30.52,6
1534,30.66,5
1541,30.8,2
1548,30.94,6
1555,31.08,5
1562,31.22,5
1569,31.36,5
1576,31.5,2
1583,31.64,3
1590,31.78,1
1597,31.92,1
1604,32.06,2
1611,32.2,7
1618,32.34,4
1625,32.48,4
1632,32.62,3
1639,32.76,3
1646,32.9,6
1653,33.04,4
1660,33.18,0
1667,33.32,4
1674,33.46,5
1681,33.6,6
1688,33.74,6
1695,33.88,6
1702,34.02,2
1709,34.16,2
1716,34.3,6
1723,34.44,2
1730,34.58,3
1737,34.72,1
1744,34.86,1
1751,35,2
1758,35.14,8
1765,35.28,0
1772,35.42,3
1779,35.56,4
1786,35.7,1
1793,35.84,1
1800,35.98,1
1807,36.12,1
1814,36.26,0
1821,36.4,3
1828,36.54,2
1835,36.68,1
1842,36.82,0
1849,36.96,0
1856,37.1,1
1863,37.24,0
1870,37.38,2
1877,37.52,1
1884,37.66,0
1891,37.8,0
1898,37.94,1
1905,38.08,0
1912,38.22,0
1919,38.36,2
1926,38.5,0
1933,38.64,0
1940,38.78,1
1947,38.92,0
1954,39.06,0
1961,39.2,0
1968,39.34,0
1975,39.48,0
1982,39.62,0
1989,39.76,0
1996,39.9,0
2003,40.04,0
2010,40.18,0
2017,40.32,0
2024,40.46,0
2031,40.6,0
2038,40.74,1
2045,40.88,0
2048,40.94,0