Folder: Jack-G-21 (part 2)

File: XRF Scan 2 Head.csv
Bruker AXS HMP Instrument Tools Complete CSV
FileName,C:\Users\skel2534\Desktop\Sydney Grammar\Jack Glass\XRF Scan 2 Head.pdz
SerialString,
TubeTargetElement,45
NumberOfSpectra,1
SampleID,
AcquisitionDateTime,11/05/2021 11:51:36 AM
TotalElapsedTimeInSeconds,31
AnodeTakeOffAngle,53
SampleIncidenceAngle,45
BeThicknessInMicroMeters,75
SampleTakeOffAngle,65
SpotSizeUsed,-1
XrayVoltageInkV,40,
XrayFilamentCurrentInMicroAmps,3.2,
RawCounts,268329,
ValidCounts,202388,
eVPerChannel,20,
StartingKeV,0,
ZeroOffsetInKeV,0,
StartingChannel,0,
NumberOfChannels,2048,
CountsPerSecond,8944.3,
XilinxFirmwareVersion,808,
IlluminationID,,
Filter1ElementAtomicNum,22,
Filter1Thickness,25,
Filter2ElementAtomicNum,13,
Filter2Thickness,300,
Filter3ElementAtomicNum,0,
Filter3Thickness,0,
AcquisitionDateTime,11/05/2021 11:51:36 AM,
LiveTimeInSeconds,24.13,
DeadTimeInSeconds,5.840001,
ResetTimeInSeconds,0.142,
DetectorTempInC,-40.5,
AmbientTempInF,94.4,
NosePressureInMilliBars,,
NoseTemperatureInC,,
ActiveTimeInSeconds,30,
PacketTimeInSeconds,30.142,
CommunicationTimeInSeconds,0.8579998,
ElapsedClockTimeInSeconds,31,
Spectrum:ChannelNumber,ChannelStartInKeV,ChannelCount
1,0,7
8,0.14,1
15,0.28,0
22,0.42,0
29,0.56,2
36,0.7,7
43,0.84,7
50,0.98,6
57,1.12,10
64,1.26,4
71,1.4,14
78,1.54,12
85,1.68,8
92,1.82,11
99,1.96,7
106,2.1,3
113,2.24,7
120,2.38,14
127,2.52,15
134,2.66,21
141,2.8,8
148,2.94,6
155,3.08,6
162,3.22,3
169,3.36,5
176,3.5,3
183,3.64,4
190,3.78,7
197,3.92,3
204,4.06,2
211,4.2,5
218,4.34,4
225,4.48,3
232,4.62,4
239,4.76,2
246,4.9,3
253,5.04,7
260,5.18,2
267,5.32,3
274,5.46,2
281,5.6,8
288,5.74,5
295,5.88,9
302,6.02,4
309,6.16,17
316,6.3,34
323,6.44,35
330,6.58,18
337,6.72,6
344,6.86,9
351,7,14
358,7.14,10
365,7.28,10
372,7.42,27
379,7.56,31
386,7.7,55
393,7.84,1171
400,7.98,9768
407,8.12,9150
414,8.26,1055
421,8.4,69
428,8.54,45
435,8.68,173
442,8.82,1458
449,8.96,1704
456,9.1,282
463,9.24,20
470,9.38,5
477,9.52,1
484,9.66,5
491,9.8,2
498,9.94,3
505,10.08,1
512,10.22,10
519,10.36,65
526,10.5,307
533,10.64,221
540,10.78,23
547,10.92,8
554,11.06,48
561,11.2,170
568,11.34,82
575,11.48,12
582,11.62,7
589,11.76,7
596,11.9,6
603,12.04,14
610,12.18,12
617,12.32,24
624,12.46,119
631,12.6,250
638,12.74,143
645,12.88,34
652,13.02,21
659,13.16,14
666,13.3,6
673,13.44,3
680,13.58,3
687,13.72,4
694,13.86,7
701,14,5
708,14.14,2
715,14.28,9
722,14.42,4
729,14.56,8
736,14.7,37
743,14.84,46
750,14.98,14
757,15.12,18
764,15.26,21
771,15.4,11
778,15.54,6
785,15.68,7
792,15.82,14
799,15.96,37
806,16.1,79
813,16.24,33
820,16.38,8
827,16.52,5
834,16.66,4
841,16.8,16
848,16.94,29
855,17.08,24
862,17.22,5
869,17.36,7
876,17.5,6
883,17.64,6
890,17.78,8
897,17.92,7
904,18.06,4
911,18.2,8
918,18.34,5
925,18.48,9
932,18.62,15
939,18.76,12
946,18.9,14
953,19.04,12
960,19.18,22
967,19.32,17
974,19.46,11
981,19.6,15
988,19.74,12
995,19.88,23
1002,20.02,32
1009,20.16,38
1016,20.3,34
1023,20.44,21
1030,20.58,10
1037,20.72,13
1044,20.86,7
1051,21,7
1058,21.14,10
1065,21.28,12
1072,21.42,7
1079,21.56,8
1086,21.7,5
1093,21.84,27
1100,21.98,46
1107,22.12,45
1114,22.26,39
1121,22.4,16
1128,22.54,8
1135,22.68,17
1142,22.82,10
1149,22.96,7
1156,23.1,6
1163,23.24,4
1170,23.38,5
1177,23.52,5
1184,23.66,7
1191,23.8,7
1198,23.94,5
1205,24.08,11
1212,24.22,4
1219,24.36,6
1226,24.5,3
1233,24.64,5
1240,24.78,13
1247,24.92,19
1254,25.06,25
1261,25.2,44
1268,25.34,32
1275,25.48,9
1282,25.62,5
1289,25.76,4
1296,25.9,7
1303,26.04,11
1310,26.18,5
1317,26.32,8
1324,26.46,9
1331,26.6,3
1338,26.74,3
1345,26.88,4
1352,27.02,4
1359,27.16,5
1366,27.3,6
1373,27.44,8
1380,27.58,7
1387,27.72,7
1394,27.86,7
1401,28,3
1408,28.14,6
1415,28.28,6
1422,28.42,16
1429,28.56,9
1436,28.7,8
1443,28.84,4
1450,28.98,7
1457,29.12,3
1464,29.26,5
1471,29.4,9
1478,29.54,3
1485,29.68,4
1492,29.82,4
1499,29.96,8
1506,30.1,4
1513,30.24,7
1520,30.38,4
1527,30.52,6
1534,30.66,5
1541,30.8,8
1548,30.94,7
1555,31.08,2
1562,31.22,3
1569,31.36,5
1576,31.5,3
1583,31.64,5
1590,31.78,3
1597,31.92,3
1604,32.06,4
1611,32.2,2
1618,32.34,9
1625,32.48,8
1632,32.62,3
1639,32.76,7
1646,32.9,7
1653,33.04,7
1660,33.18,0
1667,33.32,5
1674,33.46,6
1681,33.6,1
1688,33.74,6
1695,33.88,0
1702,34.02,2
1709,34.16,4
1716,34.3,2
1723,34.44,1
1730,34.58,4
1737,34.72,2
1744,34.86,1
1751,35,1
1758,35.14,2
1765,35.28,2
1772,35.42,0
1779,35.56,1
1786,35.7,0
1793,35.84,1
1800,35.98,1
1807,36.12,3
1814,36.26,1
1821,36.4,2
1828,36.54,1
1835,36.68,0
1842,36.82,0
1849,36.96,2
1856,37.1,0
1863,37.24,0
1870,37.38,0
1877,37.52,0
1884,37.66,0
1891,37.8,0
1898,37.94,1
1905,38.08,2
1912,38.22,0
1919,38.36,2
1926,38.5,0
1933,38.64,0
1940,38.78,0
1947,38.92,0
1954,39.06,0
1961,39.2,1
1968,39.34,0
1975,39.48,0
1982,39.62,0
1989,39.76,0
1996,39.9,0
2003,40.04,0
2010,40.18,0
2017,40.32,0
2024,40.46,0
2031,40.6,0
2038,40.74,0
2045,40.88,0
2048,40.94,0